Folder: ML_Projects (part 2)

File: 382_U1538A_XRF.csv
Expedition,Site,Hole,Core,Type,Section,A/W,Offset (mm),CSF-A (m),CSF-B (m),Test No.,TextID,Voltage (kV),Tube Current (mA),Live Time (s),Real Time (s),Down-Core Slit (mm),Cross-Core Slit (mm),Filter,Total Counts Per Second,Mg-Ka Area,Al-Ka Area,Si-Ka Area,P -Ka Area,S -Ka Area,Cl-Ka Area,Ar-Ka Area,K -Ka Area,Ca-Ka Area,Ti-Ka Area,Cr-Ka Area,Mn-Ka Area,Fe-Ka Area,Rh-La-Coh Area,Instrument,Scan Number,Date of Measure,Time of Measure,Uploaded By,Date Uploaded,Comment
382,U1538,A,4,H,4,A,40.0,31.34,31.326,44596472,SHLF9961561,10,0.16,6,7,10,12,No-Filter,123435,-45,2284,69051,137,1931,72905,-2692,20987,21443,10870,-81,1735,120755,42471,XRF2,1,2019-10-09,16:05:25,LEVAY_B,2019-11-05 16:39:02,~1mm accessory; with film; XRF 2
382,U1538,A,4,H,4,A,320.0,31.62,31.606,44596472,SHLF9961561,10,0.16,6,7,10,12,No-Filter,132473,28,3675,94146,316,1798,60899,-3464,28033,29380,14391,220,2039,141925,41119,XRF2,1,2019-10-09,16:07:25,LEVAY_B,2019-11-05 16:39:02,~1mm accessory; with film; XRF 2
382,U1538,A,4,H,4,A,600.0,31.9,31.886,44596472,SHLF9961561,10,0.16,6,8,10,12,No-Filter,141843,30,4397,91535,321,1397,57247,-3251,33948,36912,17478,308,2450,178900,41382,XRF2,1,2019-10-09,16:09:26,LEVAY_B,2019-11-05 16:39:02,~1mm accessory; with film; XRF 2
382,U1538,A,4,H,4,A,880.0,32.18,32.166,44596472,SHLF9961561,10,0.16,6,7,10,12,No-Filter,134358,13,3201,74506,186,1576,69544,-3453,25764,34108,15295,65,2495,153816,43085,XRF2,1,2019-10-09,16:11:27,LEVAY_B,2019-11-05 16:39:02,~1mm accessory; with film; XRF 2
382,U1538,A,4,H,4,A,1160.0,32.46,32.446,44596472,SHLF9961561,10,0.16,6,7,10,12,No-Filter,129035,-48,2841,77361,210,1563,69640,-3142,23628,29046,13444,208,2162,133466,43396,XRF2,1,2019-10-09,16:13:27,LEVAY_B,2019-11-05 16:39:02,~1mm accessory; with film; XRF 2
382,U1538,A,4,H,4,A,1440.0,32.74,32.726,44596472,SHLF9961561,10,0.16,6,7,10,12,No-Filter,140661,12,4506,108357,320,2015,62600,-4230,28182,33007,15600,398,2445,147686,41959,XRF2,1,2019-10-09,16:15:28,LEVAY_B,2019-11-05 16:39:02,~1mm accessory; with film; XRF 2
382,U1538,A,4,H,5,A,280.0,33.08,33.061,44596482,SHLF9961591,10,0.16,6,7,10,12,No-Filter,122196,-7,2831,82138,241,2158,58866,-3091,21873,24539,12263,102,1727,126418,39511,XRF2,1,2019-10-09,16:33:49,LEVAY_B,2019-11-05 16:39:06,~1mm accessory; with film; XRF 2
382,U1538,A,4,H,5,A,560.0,33.36,33.341,44596482,SHLF9961591,10,0.16,6,7,10,12,No-Filter,124726,-5,2913,81493,113,1851,65148,-3263,23903,22666,12448,-11,1755,124672,42030,XRF2,1,2019-10-09,16:35:50,LEVAY_B,2019-11-05 16:39:06,~1mm accessory; with film; XRF 2
382,U1538,A,4,H,5,A,840.0,33.64,33.621,44596482,SHLF9961591,10,0.16,6,7,10,12,No-Filter,122409,3,3190,86770,249,1863,55523,-2872,21675,26114,13024,447,1935,130323,38359,XRF2,1,2019-10-09,16:37:51,LEVAY_B,2019-11-05 16:39:06,~1mm accessory; with film; XRF 2
382,U1538,A,4,H,5,A,1120.0,33.92,33.901,44596482,SHLF9961591,10,0.16,6,7,10,12,No-Filter,124401,-10,3276,92795,221,1885,55447,-2924,23405,23487,12944,119,1764,130579,39037,XRF2,1,2019-10-09,16:39:52,LEVAY_B,2019-11-05 16:39:06,~1mm accessory; with film; XRF 2
382,U1538,A,4,H,5,A,1400.0,34.2,34.181,44596482,SHLF9961591,10,0.16,6,7,10,12,No-Filter,119857,-33,2748,81540,205,1936,63993,-2768,22386,19923,11624,-152,1462,116666,39818,XRF2,1,2019-10-09,16:41:54,LEVAY_B,2019-11-05 16:39:06,~1mm accessory; with film; XRF 2
382,U1538,A,5,H,5,A,200.0,42.5,42.5,44596492,SHLF9962061,10,0.16,6,7,10,12,No-Filter,115597,-20,2577,97215,234,2211,57173,-3040,18891,11960,8090,67,1384,93123,39028,XRF2,1,2019-10-09,17:01:25,LEVAY_B,2019-11-05 16:39:09,~1mm accessory; with film; XRF 2
382,U1538,A,5,H,5,A,480.0,42.78,42.78,44596492,SHLF9962061,10,0.16,6,7,10,12,No-Filter,127620,-12,3518,102646,181,2652,49829,-2719,28876,16617,12034,338,1953,142454,38686,XRF2,1,2019-10-09,17:03:26,LEVAY_B,2019-11-05 16:39:09,~1mm accessory; with film; XRF 2
382,U1538,A,5,H,5,A,760.0,43.06,43.06,44596492,SHLF9962061,10,0.16,6,7,10,12,No-Filter,122038,-7,3914,104861,84,1173,55083,-2525,31339,13106,12043,325,1305,111269,38464,XRF2,1,2019-10-09,17:05:27,LEVAY_B,2019-11-05 16:39:09,~1mm accessory; with film; XRF 2
382,U1538,A,9,H,5,A,200.0,80.52,80.058,44596502,SHLF9964051,10,0.16,6,8,10,12,No-Filter,149721,104,7887,129620,477,3985,37714,-3354,46226,35626,19917,591,2376,197221,38339,XRF2,1,2019-10-09,17:18:39,LEVAY_B,2019-11-05 16:39:12,~1mm accessory; with film; XRF 2
382,U1538,A,9,H,5,A,480.0,80.8,80.338,44596502,SHLF9964051,10,0.16,6,8,10,12,No-Filter,154164,118,8044,125234,470,2817,38321,-3229,51117,40180,21766,896,2827,213743,38128,XRF2,1,2019-10-09,17:20:41,LEVAY_B,2019-11-05 16:39:12,~1mm accessory; with film; XRF 2
382,U1538,A,9,H,5,A,760.0,81.08,80.618,44596502,SHLF9964051,10,0.16,6,7,10,12,No-Filter,111161,29,4084,80439,264,1690,22506,2358,33328,25875,14557,435,2277,153181,30510,XRF2,1,2019-10-09,17:22:44,LEVAY_B,2019-11-05 16:39:12,~1mm accessory; with film; XRF 2
382,U1538,A,9,H,5,A,1040.0,81.36,80.898,44596502,SHLF9964051,10,0.16,6,8,10,12,No-Filter,143227,119,6520,118904,326,4158,39229,-3017,40517,34504,17521,399,2549,188789,36543,XRF2,1,2019-10-09,17:24:46,LEVAY_B,2019-11-05 16:39:12,~1mm accessory; with film; XRF 2
382,U1538,A,9,H,5,A,1320.0,81.64,81.178,44596502,SHLF9964051,10,0.16,6,8,10,12,No-Filter,156236,197,9000,122108,464,3116,35609,-3046,51764,50038,22903,567,3221,222334,37012,XRF2,1,2019-10-09,17:26:50,LEVAY_B,2019-11-05 16:39:12,~1mm accessory; with film; XRF 2
382,U1538,A,12,H,3,A,120.0,105.92,105.72,44596442,SHLF9965771,10,0.16,6,7,10,12,No-Filter,138685,106,5430,104898,347,3283,44707,-2867,37928,31889,17082,682,2206,179391,37751,XRF2,1,2019-10-09,17:48:25,LEVAY_B,2019-11-05 16:38:51,~1mm accessory; with film; XRF 2
382,U1538,A,12,H,3,A,400.0,106.2,106.0,44596442,SHLF9965771,10,0.16,6,7,10,12,No-Filter,140418,77,5728,103315,217,4383,42344,-2208,38785,33411,17371,657,2377,187602,37247,XRF2,1,2019-10-09,17:50:27,LEVAY_B,2019-11-05 16:38:51,~1mm accessory; with film; XRF 2
382,U1538,A,12,H,3,A,680.0,106.48,106.28,44596442,SHLF9965771,10,0.16,6,8,10,12,No-Filter,142574,71,6516,103181,280,5241,36985,-2002,42671,38032,19147,605,3073,199511,35588,XRF2,1,2019-10-09,17:52:28,LEVAY_B,2019-11-05 16:38:51,~1mm accessory; with film; XRF 2
382,U1538,A,12,H,3,A,960.0,106.76,106.56,44596442,SHLF9965771,10,0.16,6,8,10,12,No-Filter,151872,76,8005,112614,467,2756,38504,-2890,48071,45414,21983,763,2876,215596,36916,XRF2,1,2019-10-09,17:54:30,LEVAY_B,2019-11-05 16:38:51,~1mm accessory; with film; XRF 2
382,U1538,A,12,H,3,A,1240.0,107.04,106.84,44596442,SHLF9965771,10,0.16,6,8,10,12,No-Filter,165094,205,10698,126646,435,1125,31271,-3143,56378,62128,24697,1108,3488,246572,37543,XRF2,1,2019-10-09,17:56:35,LEVAY_B,2019-11-05 16:38:51,~1mm accessory; with film; XRF 2
382,U1538,A,12,H,3,A,1520.0,107.32,107.12,44596442,SHLF9965771,10,0.16,6,7,10,12,No-Filter,99375,27,4589,64341,157,866,14419,2809,30244,32756,13850,626,2216,140039,28478,XRF2,1,2019-10-09,17:58:39,LEVAY_B,2019-11-05 16:38:51,~1mm accessory; with film; XRF 2
382,U1538,A,13,H,7,A,280.0,119.11,119.049,44596452,SHLF9966501,10,0.16,6,7,10,12,No-Filter,116741,31,2711,127723,280,1732,42871,-2089,14542,33058,8148,333,1598,88710,36341,XRF2,1,2019-10-09,18:20:03,LEVAY_B,2019-11-05 16:38:55,~1mm accessory; with film; XRF 2
382,U1538,A,13,H,7,A,560.0,119.39,119.329,44596452,SHLF9966501,10,0.16,6,7,10,12,No-Filter,112429,16,2564,117243,182,1530,41193,-2389,13260,30298,7312,351,1715,81435,34554,XRF2,1,2019-10-09,18:22:04,LEVAY_B,2019-11-05 16:38:55,~1mm accessory; with film; XRF 2
382,U1538,A,13,H,7,A,840.0,119.67,119.609,44596452,SHLF9966501,10,0.16,6,7,10,12,No-Filter,111363,4,2406,118261,111,1833,45561,-2042,12301,22081,6413,422,1397,76525,35372,XRF2,1,2019-10-09,18:24:05,LEVAY_B,2019-11-05 16:38:55,~1mm accessory; with film; XRF 2
382,U1538,A,13,H,7,A,1120.0,119.95,119.889,44596452,SHLF9966501,10,0.16,6,7,10,12,No-Filter,116565,12,2459,124763,287,2792,49599,-2747,13397,22785,6872,144,1122,85418,37562,XRF2,1,2019-10-09,18:26:04,LEVAY_B,2019-11-05 16:38:55,~1mm accessory; with film; XRF 2
382,U1538,A,13,H,7,A,1400.0,120.23,120.169,44596452,SHLF9966501,10,0.16,6,7,10,12,No-Filter,94683,46,2076,97517,156,1342,34804,101,11507,13979,6159,239,1262,71507,31095,XRF2,1,2019-10-09,18:28:04,LEVAY_B,2019-11-05 16:38:55,~1mm accessory; with film; XRF 2
382,U1538,A,14,H,2,A,280.0,123.54,123.54,44596462,SHLF9967011,10,0.16,6,7,10,12,No-Filter,118537,-13,3157,111649,273,2558,49683,-2461,20094,15887,9367,355,1730,106153,37284,XRF2,1,2019-10-10,09:19:00,LEVAY_B,2019-11-05 16:38:58,~1mm accessory; with film; XRF 2
382,U1538,A,14,H,2,A,560.0,123.82,123.82,44596462,SHLF9967011,10,0.16,6,7,10,12,No-Filter,119370,44,3826,121457,230,2461,44876,-2507,23392,14512,10201,207,1367,109328,36038,XRF2,1,2019-10-10,09:21:02,LEVAY_B,2019-11-05 16:38:58,~1mm accessory; with film; XRF 2
382,U1538,A,14,H,2,A,840.0,124.1,124.1,44596462,SHLF9967011,10,0.16,6,7,10,12,No-Filter,123834,-41,3796,122976,182,3015,47146,-2924,23227,15635,10711,262,1717,115853,38038,XRF2,1,2019-10-10,09:23:04,LEVAY_B,2019-11-05 16:38:58,~1mm accessory; with film; XRF 2
382,U1538,A,14,H,2,A,1120.0,124.38,124.38,44596462,SHLF9967011,10,0.16,6,7,10,12,No-Filter,121414,-44,3476,117191,227,3177,47746,-2782,23987,14603,10330,248,1487,114350,37090,XRF2,1,2019-10-10,09:25:06,LEVAY_B,2019-11-05 16:38:58,~1mm accessory; with film; XRF 2
382,U1538,A,14,H,2,A,1400.0,124.66,124.66,44596462,SHLF9967011,10,0.16,6,7,10,12,No-Filter,120021,-16,3157,112448,184,3225,47449,-2230,20476,15506,9616,292,1898,119418,36665,XRF2,1,2019-10-10,09:27:08,LEVAY_B,2019-11-05 16:38:58,~1mm accessory; with film; XRF 2
382,U1538,A,14,H,2,A,1440.0,124.7,124.7,44596462,SHLF9967011,10,0.16,6,7,10,12,No-Filter,119351,-15,3215,114482,188,3240,47080,-2095,20286,14884,9188,272,1693,116317,36313,XRF2,1,2019-10-10,09:27:26,LEVAY_B,2019-11-05 16:38:58,~1mm accessory; with film; XRF 2