Folder: ML_Projects

File: 382_U1536A_XRF.csv
Expedition,Site,Hole,Core,Type,Section,A/W,Offset (mm),Depth CSF-A (m),CSF-B (m),Test No.,TextID,Voltage (kV),Tube Current (mA),Live Time (s),Real Time (s),Down-Core Slit (mm),Cross-Core Slit (mm),Filter,Total Counts Per Second,Mg-Ka Area,Al-Ka Area,Si-Ka Area,P -Ka Area,S -Ka Area,Cl-Ka Area,Ar-Ka Area,K -Ka Area,Ca-Ka Area,Ti-Ka Area,Cr-Ka Area,Mn-Ka Area,Fe-Ka Area,Rh-La-Coh Area,Instrument,Scan Number,Date of Measure,Time of Measure,Uploaded By,Date Uploaded,Comment
382,U1536,A,4,H,1,A,20,23.52,23.52,44593672,SHLF9855221,10,0.16,6,7,10,12,No-Filter,124964,10,3563,74952,189,2255,58600,-3750,30048,24877,13802,227,1883,141364,37381,XRF2,1,10/7/2019,11:57:30,LEVAY_B,11/1/2019 22:31,~1mm accessory; with film; XRF 2
382,U1536,A,4,H,1,A,540,24.04,24.04,44593672,SHLF9855221,10,0.16,6,7,10,12,No-Filter,123166,18,2208,53718,137,2859,74196,-3459,21841,21452,11687,120,1768,134000,41561,XRF2,1,10/7/2019,12:04:25,LEVAY_B,11/1/2019 22:31,~1mm accessory; with film; XRF 2
382,U1536,A,4,H,1,A,1060,24.56,24.56,44593672,SHLF9855221,10,0.16,6,7,10,12,No-Filter,129060,-35,3094,89357,219,2642,61852,-3513,23631,25048,13119,236,1829,135136,41370,XRF2,1,10/7/2019,12:11:23,LEVAY_B,11/1/2019 22:31,~1mm accessory; with film; XRF 2
382,U1536,A,4,H,2,A,100,25.1,25.014,44593682,SHLF9855251,10,0.16,6,7,10,12,No-Filter,122755,-38,1895,67010,91,2844,75160,-3776,18000,18081,9830,-28,1855,116589,43812,XRF2,1,10/7/2019,13:27:58,LEVAY_B,11/1/2019 22:31,~1mm accessory; with film; XRF 2
382,U1536,A,4,H,2,A,620,25.62,25.534,44593682,SHLF9855251,10,0.16,6,7,10,12,No-Filter,126753,-40,2756,93395,180,2848,63102,-3412,22071,19939,10591,19,1291,123012,41403,XRF2,1,10/7/2019,13:34:56,LEVAY_B,11/1/2019 22:31,~1mm accessory; with film; XRF 2
382,U1536,A,4,H,2,A,1140,26.14,26.054,44593682,SHLF9855251,10,0.16,6,7,10,12,No-Filter,128368,0,2989,90315,257,2996,63623,-3268,23198,20360,11392,32,1793,130096,41253,XRF2,1,10/7/2019,13:41:53,LEVAY_B,11/1/2019 22:31,~1mm accessory; with film; XRF 2
382,U1536,A,4,H,4,A,180,28.18,27.921,44593692,SHLF9855311,10,0.16,6,7,10,12,No-Filter,131607,-29,2858,79671,164,2848,67891,-3853,24819,25046,12966,101,2093,139632,43544,XRF2,1,10/7/2019,14:59:50,LEVAY_B,11/1/2019 22:31,~1mm accessory; with film; XRF 2
382,U1536,A,4,H,4,A,700,28.7,28.441,44593692,SHLF9855311,10,0.16,6,7,10,12,No-Filter,130658,4,3458,97127,288,2800,59043,-3602,24995,25487,12957,247,1904,133174,41403,XRF2,1,10/7/2019,15:06:49,LEVAY_B,11/1/2019 22:31,~1mm accessory; with film; XRF 2
382,U1536,A,4,H,4,A,1220,29.22,28.961,44593692,SHLF9855311,10,0.16,6,7,10,12,No-Filter,125417,-17,2574,77889,145,3274,68487,-3645,21124,20786,10326,60,1785,121064,42561,XRF2,1,10/7/2019,15:13:46,LEVAY_B,11/1/2019 22:31,~1mm accessory; with film; XRF 2
382,U1536,A,4,H,5,A,300,29.81,29.464,44593702,SHLF9855341,10,0.16,6,7,10,12,No-Filter,132062,-8,3214,93192,215,3229,67699,-3885,24468,22470,11681,124,1845,128493,43167,XRF2,1,10/7/2019,15:49:07,LEVAY_B,11/1/2019 22:31,~1mm accessory; with film; XRF 2
382,U1536,A,4,H,5,A,820,30.33,29.984,44593702,SHLF9855341,10,0.16,6,7,10,12,No-Filter,126585,42,2567,85511,85,3571,70162,-3620,21404,19051,9837,259,1546,114812,43461,XRF2,1,10/7/2019,15:56:07,LEVAY_B,11/1/2019 22:31,~1mm accessory; with film; XRF 2
382,U1536,A,4,H,5,A,1340,30.85,30.504,44593702,SHLF9855341,10,0.16,6,7,10,12,No-Filter,130556,-22,2367,76125,187,4328,73013,-3776,22723,19993,10754,0,1543,136743,43747,XRF2,1,10/7/2019,16:03:06,LEVAY_B,11/1/2019 22:31,~1mm accessory; with film; XRF 2
382,U1536,A,5,H,1,A,380,33.38,33.38,44593712,SHLF9855691,10,0.16,6,7,10,12,No-Filter,121092,-49,1439,65631,83,3612,82286,-4019,15589,14268,7439,-324,1561,92541,44827,XRF2,1,10/7/2019,16:39:08,LEVAY_B,11/1/2019 22:31,~1mm accessory; with film; XRF 2
382,U1536,A,5,H,1,A,900,33.9,33.9,44593712,SHLF9855691,10,0.16,6,7,10,12,No-Filter,116812,-54,1531,71078,88,3428,74880,-3331,16194,13702,7311,-45,1383,88119,44299,XRF2,1,10/7/2019,16:46:01,LEVAY_B,11/1/2019 22:31,~1mm accessory; with film; XRF 2
382,U1536,A,5,H,1,A,1420,34.42,34.42,44593712,SHLF9855691,10,0.16,6,7,10,12,No-Filter,126795,-21,2697,76421,181,2926,70010,-3335,24320,19615,11528,11,1827,124300,42815,XRF2,1,10/7/2019,16:52:57,LEVAY_B,11/1/2019 22:31,~1mm accessory; with film; XRF 2
382,U1536,A,5,H,7,A,460,42.45,42.035,44593722,SHLF9855871,10,0.16,6,7,10,12,No-Filter,115764,-20,1673,70046,87,2924,77501,-3769,13653,14592,6693,-326,1542,81777,43324,XRF2,1,10/7/2019,17:30:38,LEVAY_B,11/1/2019 22:32,~1mm accessory; with film; XRF 2
382,U1536,A,6,H,2,A,500,44.5,44.414,44593732,SHLF9856251,10,0.16,6,7,10,12,No-Filter,124776,-17,2273,77552,115,2736,69657,-3293,20722,15184,9526,-263,2811,121424,42325,XRF2,1,10/7/2019,17:50:46,LEVAY_B,11/1/2019 22:32,~1mm accessory; with film; XRF 2
382,U1536,A,6,H,2,A,1060,45.06,44.974,44593732,SHLF9856251,10,0.16,6,7,10,12,No-Filter,127371,18,3382,93258,149,2728,60156,-3002,25772,16004,11512,225,2416,129251,40189,XRF2,1,10/7/2019,17:57:43,LEVAY_B,11/1/2019 22:32,~1mm accessory; with film; XRF 2
382,U1536,A,6,H,6,A,100,50.1,49.669,44593742,SHLF9856371,10,0.16,6,8,10,12,No-Filter,158731,130,10114,130228,465,1026,36626,-3567,61351,39785,22153,819,3549,218740,39440,XRF2,1,10/7/2019,18:33:16,LEVAY_B,11/1/2019 22:32,~1mm accessory; with film; XRF 2
382,U1536,A,6,H,6,A,620,50.62,50.189,44593742,SHLF9856371,10,0.16,6,8,10,12,No-Filter,154007,189,10741,134731,546,897,29842,-3111,59771,40824,22339,449,3358,211024,37242,XRF2,1,10/7/2019,18:40:23,LEVAY_B,11/1/2019 22:32,~1mm accessory; with film; XRF 2
382,U1536,A,6,H,6,A,1140,51.14,50.709,44593742,SHLF9856371,10,0.16,6,7,10,12,No-Filter,113125,-30,1952,99663,85,1996,62715,-2848,12664,11506,6191,-57,1382,75672,40861,XRF2,1,10/7/2019,18:47:29,LEVAY_B,11/1/2019 22:32,~1mm accessory; with film; XRF 2
382,U1536,A,11,H,1,A,180,90.18,90.18,44593922,SHLF9858751,10,0.16,6,7,10,12,No-Filter,114282,-29,3393,70781,172,1877,42022,609,32155,17642,12774,325,1667,139660,34743,XRF2,1,10/8/2019,9:28:51,LEVAY_B,11/1/2019 22:39,~1mm accessory; with film; XRF 2
382,U1536,A,11,H,1,A,700,90.7,90.7,44593922,SHLF9858751,10,0.16,6,8,10,12,No-Filter,163983,197,10844,122187,629,1950,33026,-3200,57709,48780,24770,911,3507,251046,37782,XRF2,1,10/8/2019,9:35:53,LEVAY_B,11/1/2019 22:39,~1mm accessory; with film; XRF 2
382,U1536,A,11,H,1,A,1220,91.22,91.22,44593922,SHLF9858751,10,0.16,6,8,10,12,No-Filter,160009,149,11429,127457,701,340,28317,-2990,65131,42801,24650,968,3169,240730,36294,XRF2,1,10/8/2019,9:43:00,LEVAY_B,11/1/2019 22:39,~1mm accessory; with film; XRF 2
382,U1536,A,11,H,2,A,260,91.76,91.697,44593932,SHLF9858781,10,0.16,6,8,10,12,No-Filter,148593,203,9433,109736,402,310,24692,-846,52861,51256,21819,903,3496,228234,34910,XRF2,1,10/8/2019,10:20:39,LEVAY_B,11/1/2019 22:39,~1mm accessory; with film; XRF 2
382,U1536,A,11,H,2,A,780,92.28,92.217,44593932,SHLF9858781,10,0.16,6,8,10,12,No-Filter,142947,169,8656,105833,481,425,25332,-338,56425,35489,20816,529,2937,222873,34199,XRF2,1,10/8/2019,10:27:48,LEVAY_B,11/1/2019 22:39,~1mm accessory; with film; XRF 2
382,U1536,A,11,H,2,A,1300,92.8,92.737,44593932,SHLF9858781,10,0.16,6,7,10,12,No-Filter,126204,37,6445,86206,288,1108,22600,1153,46339,34798,18481,667,2384,189368,32866,XRF2,1,10/8/2019,10:34:55,LEVAY_B,11/1/2019 22:39,~1mm accessory; with film; XRF 2
382,U1536,A,11,H,4,A,340,94.84,94.65,44593602,SHLF9858841,10,0.16,6,7,10,12,No-Filter,122309,9,3298,105034,191,2132,52357,-2339,20869,18481,11834,515,1728,121799,38112,XRF2,1,10/8/2019,11:18:52,LEVAY_B,11/1/2019 22:30,~1mm accessory; with film; XRF 2
382,U1536,A,11,H,4,A,860,95.36,95.17,44593602,SHLF9858841,10,0.16,6,7,10,12,No-Filter,127481,31,3122,103116,151,2621,58624,-3107,20983,19221,11867,313,1504,128424,41096,XRF2,1,10/8/2019,11:25:53,LEVAY_B,11/1/2019 22:30,~1mm accessory; with film; XRF 2
382,U1536,A,11,H,4,A,1380,95.88,95.69,44593602,SHLF9858841,10,0.16,6,7,10,12,No-Filter,133530,33,3846,93797,188,1934,59727,-3597,27464,24690,15595,209,1933,151103,41091,XRF2,1,10/8/2019,11:32:54,LEVAY_B,11/1/2019 22:30,~1mm accessory; with film; XRF 2
382,U1536,A,17,H,4,A,420,151.87,151.87,44593612,SHLF9862371,10,0.16,6,7,10,12,No-Filter,135325,92,6416,127377,316,2913,32396,-2035,37766,25092,17293,693,2098,172099,35559,XRF2,1,10/8/2019,12:08:43,LEVAY_B,11/1/2019 22:31,~1mm accessory; with film; XRF 2
382,U1536,A,17,H,4,A,940,152.39,152.39,44593612,SHLF9862371,10,0.16,6,7,10,12,No-Filter,137306,65,7149,136107,506,2815,30949,-2062,41134,23518,17313,469,1955,171812,35795,XRF2,1,10/8/2019,12:15:56,LEVAY_B,11/1/2019 22:31,~1mm accessory; with film; XRF 2
382,U1536,A,17,H,4,A,1460,152.91,152.91,44593612,SHLF9862371,10,0.16,6,7,10,12,No-Filter,104683,3,4900,89412,162,2836,17934,2646,30522,13734,14887,391,1323,125174,30878,XRF2,1,10/8/2019,12:23:08,LEVAY_B,11/1/2019 22:31,~1mm accessory; with film; XRF 2
382,U1536,A,17,H,5,A,1000,153.91,153.91,44593622,SHLF9862401,10,0.16,6,8,10,12,No-Filter,165861,259,12893,144173,642,475,18694,-2426,68160,63118,24691,894,3083,246738,35181,XRF2,1,10/8/2019,13:33:54,LEVAY_B,11/1/2019 22:31,~1mm accessory; with film; XRF 2
382,U1536,A,21,H,5,A,880,191.74,191.503,44593632,SHLF9864491,10,0.16,6,7,10,12,No-Filter,134939,127,6836,122165,356,1728,26882,-1594,39083,35547,17582,593,2304,181195,32769,XRF2,1,10/8/2019,14:01:59,LEVAY_B,11/1/2019 22:31,~1mm accessory; with film; XRF 2
382,U1536,A,21,H,6,A,720,193.04,192.744,44593642,SHLF9864521,10,0.16,6,7,10,12,No-Filter,127172,29,4091,108070,377,1967,34590,-1662,23917,53007,13040,757,1966,147083,33736,XRF2,1,10/8/2019,14:23:40,LEVAY_B,11/1/2019 22:31,~1mm accessory; with film; XRF 2
382,U1536,A,22,H,4,A,320,198.15,198.032,44593652,SHLF9865281,10,0.16,6,7,10,12,No-Filter,112386,58,3960,103371,194,2650,25493,-1585,24517,16088,11385,357,2132,143240,29682,XRF2,1,10/8/2019,14:47:30,LEVAY_B,11/1/2019 22:31,~1mm accessory; with film; XRF 2
382,U1536,A,22,H,4,A,1360,199.19,199.072,44593652,SHLF9865281,10,0.16,6,8,10,12,No-Filter,147355,125,8017,134355,415,794,27996,-2115,48945,28930,18427,587,3254,215944,34317,XRF2,1,10/8/2019,14:54:36,LEVAY_B,11/1/2019 22:31,~1mm accessory; with film; XRF 2
382,U1536,A,22,H,5,A,960,200.26,200.09,44593662,SHLF9865311,10,0.16,6,8,10,12,No-Filter,147117,141,7674,136470,346,1110,30816,-2115,44083,33615,17671,1051,3239,201850,34880,XRF2,1,10/8/2019,15:18:14,LEVAY_B,11/1/2019 22:31,~1mm accessory; with film; XRF 2
382,U1536,A,22,H,5,A,1400,200.7,200.53,44593662,SHLF9865311,10,0.16,6,7,10,12,No-Filter,122502,0,3714,127039,176,2309,31683,-1622,22951,17734,12471,252,1761,129849,33335,XRF2,1,10/8/2019,15:21:18,LEVAY_B,11/1/2019 22:31,~1mm accessory; with film; XRF 2

File: 382_U1537A_XRF.csv
Expedition,Site,Hole,Core,Type,Section,A/W,Offset (mm),Depth,CSF-B (m),Test No.,TextID,Voltage (kV),Tube Current (mA),Live Time (s),Real Time (s),Down-Core Slit (mm),Cross-Core Slit (mm),Filter,Total Counts Per Second,Ca,Fe,Ni,As,Br,Rb,Sr,Y,Zr,Nb,Mo,Ag,Ba,Instrument,Scan Number,Date of Measure,Time of Measure,Uploaded By,Date Uploaded,Comment
382,U1537,A,2,H,2,A,20,4.02,3.986,44592452,SHLF9921831,50,0.75,10,15,10,12,Cu,98447,759,7571,4893,84,1658,486,1153,118,1201,76,5,289414,5055,XRF1,1,10/2/2019,13:21:14,LEVAY_B,11/1/2019 21:34,~1mm accessory; with film; XRF 1
382,U1537,A,2,H,2,A,780,4.78,4.746,44592452,SHLF9921831,50,0.75,10,15,10,12,Cu,98574,907,8332,4760,73,1540,633,1415,213,1355,179,121,277576,6338,XRF1,1,10/2/2019,13:36:16,LEVAY_B,11/1/2019 21:34,~1mm accessory; with film; XRF 1
382,U1537,A,2,H,3,A,30,5.53,5.462,44592462,SHLF9921861,50,0.75,10,15,10,12,Cu,97882,770,9890,4622,91,1488,563,1443,184,1508,73,37,281452,6491,XRF1,1,10/2/2019,15:37:58,LEVAY_B,11/1/2019 21:35,~1mm accessory; with film; XRF 1
382,U1537,A,2,H,3,A,410,5.91,5.842,44592462,SHLF9921861,50,0.75,10,15,10,12,Cu,95862,799,8627,4907,114,1420,587,1372,159,1542,119,40,271008,6191,XRF1,1,10/2/2019,15:53:15,LEVAY_B,11/1/2019 21:35,~1mm accessory; with film; XRF 1
382,U1537,A,2,H,3,A,790,6.29,6.222,44592462,SHLF9921861,50,0.75,10,15,10,12,Cu,97525,770,7188,4879,66,1471,716,1171,137,1325,39,99,272095,5801,XRF1,1,10/2/2019,16:08:27,LEVAY_B,11/1/2019 21:35,~1mm accessory; with film; XRF 1
382,U1537,A,2,H,3,A,1170,6.67,6.602,44592462,SHLF9921861,50,0.75,10,15,10,12,Cu,97602,810,6613,4860,90,1642,759,1340,191,1643,58,81,275154,6651,XRF1,1,10/2/2019,16:23:31,LEVAY_B,11/1/2019 21:35,~1mm accessory; with film; XRF 1
382,U1537,A,2,H,4,A,60,7.06,6.958,44592472,SHLF9921891,50,0.75,10,15,10,12,Cu,95600,826,13128,4819,155,1025,1284,1710,411,2916,188,39,267087,8380,XRF1,1,10/3/2019,11:25:34,LEVAY_B,11/1/2019 21:35,~1mm accessory; with film; XRF 1
382,U1537,A,2,H,4,A,440,7.44,7.338,44592472,SHLF9921891,50,0.75,10,15,10,12,Cu,96499,679,9775,4808,66,1255,764,1310,209,1514,76,49,269237,7560,XRF1,1,10/3/2019,11:40:43,LEVAY_B,11/1/2019 21:35,~1mm accessory; with film; XRF 1
382,U1537,A,2,H,4,A,820,7.82,7.718,44592472,SHLF9921891,50,0.75,10,15,10,12,Cu,96910,752,14004,4718,118,968,1121,1731,268,2205,104,41,273119,10953,XRF1,1,10/3/2019,11:55:58,LEVAY_B,11/1/2019 21:35,~1mm accessory; with film; XRF 1
382,U1537,A,2,H,4,A,1200,8.2,8.098,44592472,SHLF9921891,50,0.75,10,15,10,12,Cu,95995,898,16031,4877,125,871,1123,1862,312,2376,135,103,271451,9066,XRF1,1,10/3/2019,12:11:13,LEVAY_B,11/1/2019 21:35,~1mm accessory; with film; XRF 1
382,U1537,A,2,H,5,A,130,8.63,8.494,44592482,SHLF9921921,50,0.75,10,15,10,12,Cu,92730,943,24329,4438,102,745,1155,2793,385,2437,164,67,262661,9486,XRF1,1,10/3/2019,14:12:21,LEVAY_B,11/1/2019 21:35,~1mm accessory; with film; XRF 1
382,U1537,A,2,H,5,A,510,9.01,8.874,44592482,SHLF9921921,50,0.75,10,14,10,12,Cu,88920,949,23059,4309,79,569,1076,2632,336,2366,142,53,261292,7889,XRF1,1,10/3/2019,14:27:30,LEVAY_B,11/1/2019 21:35,~1mm accessory; with film; XRF 1
382,U1537,A,2,H,5,A,890,9.39,9.254,44592482,SHLF9921921,50,0.75,10,15,10,12,Cu,90582,914,25291,4293,117,600,1111,2796,328,2469,182,39,260000,8463,XRF1,1,10/3/2019,14:42:33,LEVAY_B,11/1/2019 21:35,~1mm accessory; with film; XRF 1
382,U1537,A,2,H,5,A,1270,9.77,9.634,44592482,SHLF9921921,50,0.75,10,15,10,12,Cu,91121,1101,24679,4338,130,572,1072,2970,373,2494,213,29,260954,9311,XRF1,1,10/3/2019,14:57:33,LEVAY_B,11/1/2019 21:35,~1mm accessory; with film; XRF 1
382,U1537,A,2,H,6,A,170,10.17,10.001,44592492,SHLF9921951,50,0.75,10,14,10,12,Cu,89570,978,22762,4417,92,466,1147,3166,355,2416,160,18,262187,8313,XRF1,1,10/4/2019,11:38:27,LEVAY_B,11/1/2019 21:35,~1mm accessory; with film; XRF 1
382,U1537,A,2,H,6,A,550,10.55,10.381,44592492,SHLF9921951,50,0.75,10,15,10,12,Cu,90992,1103,23581,4267,69,569,1093,2652,313,2573,145,14,260138,8073,XRF1,1,10/4/2019,11:53:11,LEVAY_B,11/1/2019 21:35,~1mm accessory; with film; XRF 1
382,U1537,A,2,H,6,A,930,10.93,10.761,44592492,SHLF9921951,50,0.75,10,15,10,12,Cu,91919,1017,23912,4307,56,735,1085,2478,374,2175,186,6,258717,8307,XRF1,1,10/4/2019,12:08:08,LEVAY_B,11/1/2019 21:35,~1mm accessory; with film; XRF 1
382,U1537,A,2,H,6,A,1310,11.31,11.141,44592492,SHLF9921951,50,0.75,10,15,10,12,Cu,90238,1054,22070,4357,83,546,1122,2952,368,2524,174,119,261489,8529,XRF1,1,10/4/2019,12:22:48,LEVAY_B,11/1/2019 21:35,~1mm accessory; with film; XRF 1
382,U1537,A,2,H,7,A,200,11.7,11.497,44592502,SHLF9921981,50,0.75,10,15,10,12,Cu,90693,856,21041,4221,99,527,1456,2449,419,3089,209,92,261332,8616,XRF1,1,10/4/2019,13:27:30,LEVAY_B,11/1/2019 21:35,~1mm accessory; with film; XRF 1
382,U1537,A,2,H,7,A,580,12.08,11.877,44592502,SHLF9921981,50,0.75,10,15,10,12,Cu,96996,854,22831,4675,54,697,1178,2353,397,2496,121,13,285278,9143,XRF1,1,10/4/2019,13:42:21,LEVAY_B,11/1/2019 21:35,~1mm accessory; with film; XRF 1
382,U1537,A,9,H,4,A,380,73.88,73.664,44592422,SHLF9925461,50,0.75,10,15,10,12,Cu,93921,763,9906,4589,52,1057,527,1435,106,1257,77,68,261937,8588,XRF1,1,10/8/2019,18:42:13,LEVAY_B,11/1/2019 21:33,~1mm accessory; with film; XRF 1
382,U1537,A,9,H,4,A,760,74.26,74.044,44592422,SHLF9925461,50,0.75,10,15,10,12,Cu,94225,727,9417,4743,87,1105,518,1629,175,1254,149,103,262901,7803,XRF1,1,10/8/2019,18:57:06,LEVAY_B,11/1/2019 21:33,~1mm accessory; with film; XRF 1
382,U1537,A,9,H,4,A,1140,74.64,74.424,44592422,SHLF9925461,50,0.75,10,15,10,12,Cu,93823,808,11722,4587,123,1048,652,1745,152,1492,89,74,261614,10096,XRF1,1,10/8/2019,19:11:55,LEVAY_B,11/1/2019 21:33,~1mm accessory; with film; XRF 1
382,U1537,A,9,H,5,A,70,75.08,74.791,44592432,SHLF9925491,50,0.75,10,15,10,12,Cu,93155,798,9522,4664,74,1017,516,1487,200,1175,164,78,259929,8831,XRF1,1,10/9/2019,10:50:14,LEVAY_B,11/1/2019 21:34,~1mm accessory; with film; XRF 1
382,U1537,A,9,H,5,A,450,75.46,75.171,44592432,SHLF9925491,50,0.75,10,15,10,12,Cu,93839,892,9151,4512,105,1122,628,1434,133,1168,158,112,258079,9547,XRF1,1,10/9/2019,11:05:04,LEVAY_B,11/1/2019 21:34,~1mm accessory; with film; XRF 1
382,U1537,A,9,H,5,A,830,75.84,75.551,44592432,SHLF9925491,50,0.75,10,15,10,12,Cu,94558,848,9376,4662,64,1085,598,1389,103,1252,54,74,262112,10034,XRF1,1,10/9/2019,11:20:00,LEVAY_B,11/1/2019 21:34,~1mm accessory; with film; XRF 1
382,U1537,A,9,H,5,A,1210,76.22,75.931,44592432,SHLF9925491,50,0.75,10,15,10,12,Cu,94712,690,9292,4588,91,1002,698,1370,143,1303,68,54,263426,10246,XRF1,1,10/9/2019,11:34:58,LEVAY_B,11/1/2019 21:34,~1mm accessory; with film; XRF 1
382,U1537,A,9,H,6,A,90,76.6,76.239,44592442,SHLF9925521,50,0.75,10,15,10,12,Cu,93826,718,13323,4581,62,996,867,1866,186,1745,119,54,259906,15371,XRF1,1,10/9/2019,13:33:46,LEVAY_B,11/1/2019 21:34,~1mm accessory; with film; XRF 1
382,U1537,A,9,H,6,A,470,76.98,76.619,44592442,SHLF9925521,50,0.75,10,15,10,12,Cu,94236,872,14587,4738,152,963,892,1701,255,1689,112,84,259421,13341,XRF1,1,10/9/2019,13:48:39,LEVAY_B,11/1/2019 21:34,~1mm accessory; with film; XRF 1
382,U1537,A,9,H,6,A,850,77.36,76.999,44592442,SHLF9925521,50,0.75,10,15,10,12,Cu,93619,794,12526,4573,80,924,866,1586,183,2026,141,88,259365,11321,XRF1,1,10/9/2019,14:03:41,LEVAY_B,11/1/2019 21:34,~1mm accessory; with film; XRF 1
382,U1537,A,9,H,6,A,1230,77.74,77.379,44592442,SHLF9925521,50,0.75,10,15,10,12,Cu,94208,726,13563,4768,49,828,912,1568,234,1831,119,60,260124,11692,XRF1,1,10/9/2019,14:18:42,LEVAY_B,11/1/2019 21:34,~1mm accessory; with film; XRF 1
382,U1537,A,26,H,6,A,240,236.36,236.233,44720602,SHLF9934881,50,0.75,10,13,10,12,Cu,58079,492,10638,2780,58,255,619,1245,191,1359,109,80,193858,12920,XRF,1,5/3/2021,21:03:22,HERTZBERG,5/18/2021 18:57,
382,U1537,A,26,H,7,A,40,237.13,236.981,44720612,SHLF9934911,50,0.75,10,13,10,12,Cu,58230,459,9731,2796,63,300,545,1163,165,1261,110,23,194386,7794,XRF,1,5/3/2021,18:29:12,HERTZBERG,5/18/2021 18:57,
382,U1537,A,26,H,8,A,280,237.92,237.759,44720622,SHLF9934941,50,0.75,10,13,10,12,Cu,59590,560,5938,2814,33,516,330,848,103,956,16,48,194662,4746,XRF,1,5/3/2021,19:49:25,HERTZBERG,5/18/2021 18:57,
382,U1537,A,26,H,8,A,1040,238.68,238.519,44720622,SHLF9934941,50,0.75,10,13,10,12,Cu,58326,526,7454,2824,34,439,413,918,139,984,113,67,194356,5755,XRF,1,5/3/2021,20:04:53,HERTZBERG,5/18/2021 18:57,
382,U1537,A,27,F,1,A,360,240.36,240.36,44720632,SHLF9935241,50,0.75,10,13,10,12,Cu,59675,458,9511,2675,40,348,543,1267,140,1311,101,49,196994,7044,XRF,1,5/3/2021,17:38:14,HERTZBERG,5/18/2021 18:57,
382,U1537,A,27,F,1,A,1120,241.12,241.12,44720632,SHLF9935241,50,0.75,10,13,10,12,Cu,59161,485,9867,2771,61,317,599,1109,152,1327,75,2,197676,10363,XRF,1,5/3/2021,17:53:37,HERTZBERG,5/18/2021 18:57,
382,U1537,A,27,F,2,A,380,241.88,241.858,44720642,SHLF9935271,50,0.75,10,13,10,12,Cu,58378,805,12861,2719,49,229,759,1289,178,1469,98,33,194600,7914,XRF,1,5/3/2021,15:52:07,HERTZBERG,5/18/2021 18:57,
382,U1537,A,27,F,2,A,1160,242.66,242.638,44720642,SHLF9935271,50,0.75,10,13,10,12,Cu,59211,452,7590,2847,35,348,508,889,135,1246,72,40,194905,6010,XRF,1,5/3/2021,16:07:29,HERTZBERG,5/18/2021 18:57,
382,U1537,A,27,F,3,A,480,243.49,243.447,44720652,SHLF9935301,50,0.75,10,13,10,12,Cu,58082,535,10519,2704,51,328,591,1025,178,1317,82,46,193868,8551,XRF,1,5/3/2021,14:27:43,HERTZBERG,5/18/2021 18:57,
382,U1537,A,27,F,4,A,160,244.27,244.211,44720662,SHLF9935331,50,0.75,10,13,10,12,Cu,58627,529,10046,2803,75,277,759,1154,188,1713,109,60,196376,12574,XRF,1,5/3/2021,13:24:27,HERTZBERG,5/18/2021 18:57,
382,U1537,A,29,F,1,A,420,250.02,250.02,44720672,SHLF9935971,50,0.75,10,13,10,12,Cu,57882,505,12056,2791,61,294,579,1044,159,1228,78,45,192710,7650,XRF,1,5/3/2021,12:33:24,HERTZBERG,5/18/2021 18:57,
382,U1537,A,29,F,1,A,1180,250.78,250.78,44720672,SHLF9935971,50,0.75,10,13,10,12,Cu,57025,757,12321,2654,85,213,790,1198,162,1437,85,26,193704,9638,XRF,1,5/3/2021,12:48:34,HERTZBERG,5/18/2021 18:57,
382,U1537,A,29,F,2,A,460,251.56,251.515,44720682,SHLF9936001,50,0.75,10,13,10,12,Cu,56781,890,13791,2625,91,177,752,1481,224,1400,100,65,192313,6580,XRF,1,5/3/2021,11:00:06,HERTZBERG,5/18/2021 18:57,
382,U1537,A,29,F,2,A,1220,252.32,252.275,44720682,SHLF9936001,50,0.75,10,13,10,12,Cu,57808,398,11667,2703,64,277,714,1229,180,1469,111,2,192698,8206,XRF,1,5/3/2021,11:15:09,HERTZBERG,5/18/2021 18:57,
382,U1537,A,29,F,2,A,1500,252.6,252.555,44720682,SHLF9936001,50,0.75,10,13,10,12,Cu,59278,534,9603,2768,71,265,604,1210,168,1456,94,39,195291,8019,XRF,1,5/3/2021,11:20:42,HERTZBERG,5/18/2021 18:57,